{
  "resourceType": "Bundle",
  "type": "transaction",
  "entry": [
    {
      "fullUrl": "urn:uuid:58959850-7cfb-4100-bbfa-67dd64efd1a6",
      "resource": {
        "resourceType": "Composition",
        "identifier": {
          "system": "https://mpdn.kemkes.go.id/nmrkasus_kodeunik",
          "value": "2361720001"
        },
        "status": "final",
        "extension": [
          {
            "url": "https://fhir.kemkes.go.id/r4/StructureDefinition/DocumentStatus",
            "extension": [
              {
                "url": "statusCode",
                "valueCode": "final"
              },
              {
                "url": "statusTime",
                "valueDateTime": "2023-06-22T14:30:00+07:00"
              },
              {
                "url": "statusAssigner",
                "valueReference": {
                  "reference": "Practitioner/123",
                  "display": "Dr. John Doe"
                }
              }
            ]
          }
        ],
        "type": {
          "coding": [
            {
              "system": "http://terminology.kemkes.go.id/CodeSystem/composition-type",
              "code": "COM000001",
              "display": "Form Kematian Ibu"
            }
          ]
        },
        "subject": {
          "reference": "Patient/P02280547535",
          "display": "Patient - Mother (Teresa Lee)"
        },
        "encounter": {
          "reference": "Encounter/45e436ea-d6c7-4059-8cbe-e00fb2c665d8"
        },
        "date": "2023-06-22T14:30:00+07:00",
        "author": [
          {
            "reference": "Practitioner/N10000001",
            "display": "Dokter Bronsig"
          }
        ],
        "title": "Notifikasi Kematian Maternal",
        "attester": [
          {
            "mode": "legal",
            "party": {
              "reference": "Organization/10000004",
              "display": "Puskesmas Sangat Waras"
            }
          }
        ],
        "section": [
          {
            "title": "Riwayat Kematian Ibu",
            "code": {
              "coding": [
                {
                  "system": "http://loinc.org",
                  "code": "64297-5",
                  "display": "DeathInvestigation"
                }
              ]
            },
            "entry": [
              {
                "display": "Tempat Meninggal Faskes",
                "reference": "urn:uuid:9d2dec10-23e7-48c6-b257-23469626068f"
              },
              {
                "display": "Usia ketika meninggal (tahun)",
                "reference": "urn:uuid:52917cc9-15f7-4373-932b-3b0915a517b7"
              },
              {
                "display": "Tanggal Meninggal",
                "reference": "urn:uuid:d3986419-1df5-49e7-a8f7-49f3f429c084"
              },
              {
                "display": "Masa Terjadi Kematian Ibu",
                "reference": "urn:uuid:e09c9a1b-de7f-467b-877a-1dfb937b36e6"
              },
              {
                "display": "Dugaan Sebab Kematian",
                "reference": "urn:uuid:93dc613b-22ad-491c-8017-ead734a62769"
              },
              {
                "display": "Jenis Tempat Meninggal",
                "reference": "urn:uuid:6ce43fac-05b6-4435-9ff6-2af2cdbac608"
              }
            ]
          },
          {
            "title": "Riwayat Kehamilan",
            "code": {
              "coding": [
                {
                  "system": "http://loinc.org",
                  "code": "57073-9",
                  "display": "Prenatal records"
                }
              ]
            },
            "entry": [
              {
                "display": "Gravida",
                "reference": "urn:uuid:55299c3f-1c6e-4011-b77a-eefb52027a62"
              },
              {
                "display": "Paritas",
                "reference": "urn:uuid:ed0bbc43-c36e-4a17-b012-9be07217a452"
              },
              {
                "display": "Abortus",
                "reference": "urn:uuid:12a838bb-a2fa-4ad6-b81e-cce6295a1973"
              },
              {
                "display": "Usia kehamilan",
                "reference": "urn:uuid:62c7bc1d-cbab-4cf1-b223-192e3d6bf5a5"
              }
            ]
          }
        ]
      },
      "request": {
        "method": "POST",
        "url": "Composition"
      }
    },
    {
      "fullUrl": "urn:uuid:9d2dec10-23e7-48c6-b257-23469626068f",
      "resource": {
        "resourceType": "Location",
        "name": "Puskemas Sangat Waras",
        "type": [
          {
            "coding": [
              {
                "system": "http://terminology.kemkes.go.id/CodeSystem/location-type",
                "code": "LT000002",
                "display": "Tempat Meninggal Faskes"
              }
            ]
          },
          {
            "coding": [
              {
                "system": "http://terminology.kemkes.go.id/CodeSystem/location-type",
                "code": "LT000005",
                "display": "Alamat Mati"
              }
            ]
          }
        ],
        "managingOrganization": {
          "reference": "Organization/10000004",
          "display": "Puskesmas Sangat Waras"
        },
        "address": {
          "use": "work",
          "line": [
            "Gd. Prof. Dr. Sujudi Lt.5, Jl. H.R. Rasuna Said Blok X5 Kav. 4-9 Kuningan"
          ],
          "city": "Jakarta",
          "postalCode": "12950",
          "country": "ID",
          "extension": [
            {
              "url": "https://fhir.kemkes.go.id/r4/StructureDefinition/administrativeCode",
              "extension": [
                {
                  "url": "province",
                  "valueCode": "10"
                },
                {
                  "url": "city",
                  "valueCode": "1010"
                },
                {
                  "url": "district",
                  "valueCode": "1010101"
                },
                {
                  "url": "village",
                  "valueCode": "1010101101"
                },
                {
                  "url": "rt",
                  "valueCode": "1"
                },
                {
                  "url": "rw",
                  "valueCode": "22"
                }
              ]
            }
          ]
        }
      },
      "request": {
        "method": "POST",
        "url": "Location"
      }
    },
    {
      "fullUrl": "urn:uuid:52917cc9-15f7-4373-932b-3b0915a517b7",
      "resource": {
        "resourceType": "Observation",
        "identifier": [
          {
            "system": "http://sys-ids.kemkes.go.id/observation/1000004",
            "value": "O111111"
          }
        ],
        "status": "final",
        "category": [
          {
            "coding": [
              {
                "system": "http://terminology.hl7.org/CodeSystem/observation-category",
                "code": "survey",
                "display": "Survey"
              }
            ]
          }
        ],
        "code": {
          "coding": [
            {
              "system": "http://loinc.org",
              "code": "39016-1",
              "display": "Age at death"
            }
          ]
        },
        "subject": {
          "reference": "Patient/P02280547535",
          "display": "Patient - Mother (Teresa Lee)"
        },
        "encounter": {
          "reference": "Encounter/45e436ea-d6c7-4059-8cbe-e00fb2c665d8"
        },
        "effectiveDateTime": "2023-01-01T15:30:22+07:00",
        "issued": "2023-01-01T15:30:22+07:00",
        "performer": [
          {
            "reference": "Practitioner/N10000001",
            "display": "Dokter Bronsig"
          }
        ],
        "valueQuantity": {
          "value": 35,
          "unit": "Years",
          "system": "http://unitsofmeasure.org",
          "code": "a"
        }
      },
      "request": {
        "method": "POST",
        "url": "Observation"
      }
    },
    {
      "fullUrl": "urn:uuid:d3986419-1df5-49e7-a8f7-49f3f429c084",
      "resource": {
        "resourceType": "Observation",
        "identifier": [
          {
            "system": "http://sys-ids.kemkes.go.id/observation/1000004",
            "value": "O111111"
          }
        ],
        "status": "final",
        "category": [
          {
            "coding": [
              {
                "system": "http://terminology.hl7.org/CodeSystem/observation-category",
                "code": "survey",
                "display": "Survey"
              }
            ]
          }
        ],
        "code": {
          "coding": [
            {
              "system": "http://loinc.org",
              "code": "81956-5",
              "display": "Date and time of death [TimeStamp]"
            }
          ]
        },
        "subject": {
          "reference": "Patient/P02280547535",
          "display": "Patient - Mother (Teresa Lee)"
        },
        "encounter": {
          "reference": "Encounter/45e436ea-d6c7-4059-8cbe-e00fb2c665d8"
        },
        "effectiveDateTime": "2023-01-01T15:30:22+07:00",
        "issued": "2023-01-01T15:30:22+07:00",
        "performer": [
          {
            "reference": "Practitioner/N10000001",
            "display": "Dokter Bronsig"
          }
        ],
        "valueDateTime": "2023-01-01T15:30:22+07:00"
      },
      "request": {
        "method": "POST",
        "url": "Observation"
      }
    },
    {
      "fullUrl": "urn:uuid:e09c9a1b-de7f-467b-877a-1dfb937b36e6",
      "resource": {
        "resourceType": "Observation",
        "identifier": [
          {
            "system": "http://sys-ids.kemkes.go.id/observation/1000004",
            "value": "O111111"
          }
        ],
        "status": "final",
        "category": [
          {
            "coding": [
              {
                "system": "http://terminology.hl7.org/CodeSystem/observation-category",
                "code": "survey",
                "display": "Survey"
              }
            ]
          }
        ],
        "code": {
          "coding": [
            {
              "system": "http://terminology.kemkes.go.id/CodeSystem/clinical-term",
              "code": "OC000026",
              "display": "Masa terjadi Kematian Ibu"
            }
          ]
        },
        "subject": {
          "reference": "Patient/P02280547535",
          "display": "Patient - Mother (Teresa Lee)"
        },
        "encounter": {
          "reference": "Encounter/45e436ea-d6c7-4059-8cbe-e00fb2c665d8"
        },
        "effectiveDateTime": "2023-01-01T15:30:22+07:00",
        "issued": "2023-01-01T15:30:22+07:00",
        "performer": [
          {
            "reference": "Practitioner/N10000001",
            "display": "Dokter Bronsig"
          }
        ],
        "valueCodeableConcept": {
          "coding": [
            {
              "system": "http://snomed.info/sct",
              "code": "1156679005",
              "display": "Maternal antenatal period"
            }
          ]
        }
      },
      "request": {
        "method": "POST",
        "url": "Observation"
      }
    },
    {
      "fullUrl": "urn:uuid:93dc613b-22ad-491c-8017-ead734a62769",
      "resource": {
        "resourceType": "Observation",
        "identifier": [
          {
            "system": "http://sys-ids.kemkes.go.id/observation/1000004",
            "value": "O111111"
          }
        ],
        "status": "final",
        "category": [
          {
            "coding": [
              {
                "system": "http://terminology.hl7.org/CodeSystem/observation-category",
                "code": "survey",
                "display": "Survey"
              }
            ]
          }
        ],
        "code": {
          "coding": [
            {
              "system": "http://terminology.kemkes.go.id/CodeSystem/clinical-term",
              "code": "OC000033",
              "display": "Dugaan Sebab Kematian"
            }
          ]
        },
        "subject": {
          "reference": "Patient/P02280547535",
          "display": "Patient - Mother (Teresa Lee)"
        },
        "encounter": {
          "reference": "Encounter/45e436ea-d6c7-4059-8cbe-e00fb2c665d8"
        },
        "effectiveDateTime": "2023-01-01T15:30:22+07:00",
        "issued": "2023-01-01T15:30:22+07:00",
        "performer": [
          {
            "reference": "Practitioner/N10000001",
            "display": "Dokter Bronsig"
          }
        ],
        "valueCodeableConcept": {
          "coding": [
            {
              "system": "http://terminology.kemkes.go.id/CodeSystem/clinical-term",
              "code": "grup3-icdmm",
              "display": "Perdarahan obstetrik"
            }
          ]
        }
      },
      "request": {
        "method": "POST",
        "url": "Observation"
      }
    },
    {
      "fullUrl": "urn:uuid:6ce43fac-05b6-4435-9ff6-2af2cdbac608",
      "resource": {
        "resourceType": "Observation",
        "identifier": [
          {
            "system": "http://sys-ids.kemkes.go.id/observation/1000004",
            "value": "O111111"
          }
        ],
        "status": "final",
        "code": {
          "coding": [
            {
              "system": "http://terminology.kemkes.go.id/CodeSystem/clinical-term",
              "code": "OC000028",
              "display": "Jenis Tempat Meninggal"
            }
          ]
        },
        "subject": {
          "reference": "Patient/P02280547535",
          "display": "Patient - Mother (Teresa Lee)"
        },
        "encounter": {
          "reference": "Encounter/45e436ea-d6c7-4059-8cbe-e00fb2c665d8"
        },
        "effectiveDateTime": "2023-01-01T15:30:22+07:00",
        "issued": "2023-01-01T15:30:22+07:00",
        "performer": [
          {
            "reference": "Practitioner/N10000001",
            "display": "Dokter Bronsig"
          }
        ],
        "valueCodeableConcept": {
          "coding": [
            {
              "system": "http://snomed.info/sct",
              "code": "79993009",
              "display": "Government hospital"
            }
          ],
          "text": "RS Pemerintah"
        }
      },
      "request": {
        "method": "POST",
        "url": "Observation"
      }
    },
    {
      "fullUrl": "urn:uuid:55299c3f-1c6e-4011-b77a-eefb52027a62",
      "resource": {
        "resourceType": "Observation",
        "identifier": [
          {
            "system": "http://sys-ids.kemkes.go.id/observation/1000004",
            "value": "O111111"
          }
        ],
        "status": "final",
        "category": [
          {
            "coding": [
              {
                "system": "http://terminology.hl7.org/CodeSystem/observation-category",
                "code": "survey",
                "display": "Survey"
              }
            ]
          }
        ],
        "code": {
          "coding": [
            {
              "system": "http://loinc.org",
              "code": "11996-6",
              "display": "[#] Pregnancies"
            },
            {
              "system": "http://fhir.org/guides/who/anc-cds/CodeSystem/anc-custom-codes",
              "code": "ANC.B6.DE24",
              "display": "Number of pregnancies (gravida)"
            }
          ]
        },
        "subject": {
          "reference": "Patient/P02280547535",
          "display": "Patient - Mother (Teresa Lee)"
        },
        "encounter": {
          "reference": "Encounter/45e436ea-d6c7-4059-8cbe-e00fb2c665d8"
        },
        "effectiveDateTime": "2023-01-01T15:30:22+07:00",
        "issued": "2023-01-01T15:30:22+07:00",
        "performer": [
          {
            "reference": "Practitioner/N10000001",
            "display": "Dokter Bronsig"
          }
        ],
        "valueInteger": 2
      },
      "request": {
        "method": "POST",
        "url": "Observation"
      }
    },
    {
      "fullUrl": "urn:uuid:ed0bbc43-c36e-4a17-b012-9be07217a452",
      "resource": {
        "resourceType": "Observation",
        "identifier": [
          {
            "system": "http://sys-ids.kemkes.go.id/observation/1000004",
            "value": "O111111"
          }
        ],
        "status": "final",
        "category": [
          {
            "coding": [
              {
                "system": "http://terminology.hl7.org/CodeSystem/observation-category",
                "code": "survey",
                "display": "Survey"
              }
            ]
          }
        ],
        "code": {
          "coding": [
            {
              "system": "http://loinc.org",
              "code": "11977-6",
              "display": "[#] Parity"
            },
            {
              "system": "http://fhir.org/guides/who/anc-cds/CodeSystem/anc-custom-codes",
              "code": "ANC.B6.DE32",
              "display": "Parity"
            }
          ]
        },
        "subject": {
          "reference": "Patient/P02280547535",
          "display": "Patient - Mother (Teresa Lee)"
        },
        "encounter": {
          "reference": "Encounter/45e436ea-d6c7-4059-8cbe-e00fb2c665d8"
        },
        "effectiveDateTime": "2023-01-01T15:30:22+07:00",
        "issued": "2023-01-01T15:30:22+07:00",
        "performer": [
          {
            "reference": "Practitioner/N10000001",
            "display": "Dokter Bronsig"
          }
        ],
        "valueInteger": 1
      },
      "request": {
        "method": "POST",
        "url": "Observation"
      }
    },
    {
      "fullUrl": "urn:uuid:12a838bb-a2fa-4ad6-b81e-cce6295a1973",
      "resource": {
        "resourceType": "Observation",
        "identifier": [
          {
            "system": "http://sys-ids.kemkes.go.id/observation/1000004",
            "value": "O111111"
          }
        ],
        "status": "final",
        "category": [
          {
            "coding": [
              {
                "system": "http://terminology.hl7.org/CodeSystem/observation-category",
                "code": "survey",
                "display": "Survey"
              }
            ]
          }
        ],
        "code": {
          "coding": [
            {
              "system": "http://loinc.org",
              "code": "69043-8",
              "display": "Other pregnancy outcomes #"
            },
            {
              "system": "http://fhir.org/guides/who/anc-cds/CodeSystem/anc-custom-codes",
              "code": "ANC.B6.DE25",
              "display": "Number of miscarriages and/or abortions"
            }
          ]
        },
        "subject": {
          "reference": "Patient/P02280547535",
          "display": "Patient - Mother (Teresa Lee)"
        },
        "encounter": {
          "reference": "Encounter/45e436ea-d6c7-4059-8cbe-e00fb2c665d8"
        },
        "effectiveDateTime": "2023-01-01T15:30:22+07:00",
        "issued": "2023-01-01T15:30:22+07:00",
        "performer": [
          {
            "reference": "Practitioner/N10000001",
            "display": "Dokter Bronsig"
          }
        ],
        "valueInteger": 0
      },
      "request": {
        "method": "POST",
        "url": "Observation"
      }
    },
    {
      "fullUrl": "urn:uuid:62c7bc1d-cbab-4cf1-b223-192e3d6bf5a5",
      "resource": {
        "resourceType": "Observation",
        "identifier": [
          {
            "system": "http://sys-ids.kemkes.go.id/observation/1000004",
            "value": "O111111"
          }
        ],
        "status": "final",
        "category": [
          {
            "coding": [
              {
                "system": "http://terminology.hl7.org/CodeSystem/observation-category",
                "code": "survey",
                "display": "Survey"
              }
            ]
          }
        ],
        "code": {
          "coding": [
            {
              "system": "http://loinc.org",
              "code": "18185-9",
              "display": "Gestational age"
            },
            {
              "system": "http://fhir.org/guides/who/anc-cds/CodeSystem/anc-custom-codes",
              "code": "ANC.B6.DE17",
              "display": "Gestational age"
            }
          ]
        },
        "subject": {
          "reference": "Patient/P02280547535",
          "display": "Patient - Mother (Teresa Lee)"
        },
        "encounter": {
          "reference": "Encounter/45e436ea-d6c7-4059-8cbe-e00fb2c665d8"
        },
        "effectiveDateTime": "2023-01-01T15:30:22+07:00",
        "issued": "2023-01-01T15:30:22+07:00",
        "performer": [
          {
            "reference": "Practitioner/N10000001",
            "display": "Dokter Bronsig"
          }
        ],
        "valueQuantity": {
          "value": 7,
          "unit": "week",
          "system": "http://unitsofmeasure.org",
          "code": "wk"
        }
      },
      "request": {
        "method": "POST",
        "url": "Observation"
      }
    },
    {
      "fullUrl": "urn:uuid:45e436ea-d6c7-4059-8cbe-e00fb2c665d8",
      "resource": {
        "resourceType": "Encounter",
        "id": "45e436ea-d6c7-4059-8cbe-e00fb2c665d8",
        "identifier": [
          {
            "system": "http://sys-ids.kemkes.go.id/encounter/10000004",
            "value": "MPDN-MATERNAL-23_3578_0053"
          },
          {
            "use": "temp",
            "system": "http://sys-ids.kemkes.go.id/mpdn/10000004",
            "value": "MPDN-MATERNAL-23_3578_0053"
          }
        ],
        "status": "finished",
        "class": {
          "system": "http://terminology.hl7.org/CodeSystem/v3-ActCode",
          "code": "AMB",
          "display": "ambulatory"
        },
        "subject": {
          "display": "Patient - Mother (Teresa Lee)",
          "reference": "Patient/P02280547535"
        },
        "participant": [
          {
            "type": [
              {
                "coding": [
                  {
                    "system": "http://terminology.hl7.org/CodeSystem/v3-ParticipationType",
                    "code": "ATND",
                    "display": "attender"
                  }
                ]
              }
            ],
            "individual": {
              "reference": "Practitioner/N10000001",
              "display": "Dokter Bronsig"
            }
          }
        ],
        "period": {
          "start": "2022-12-30T07:00:30+07:00",
          "end": "2022-12-30T15:30:30+07:00"
        },
        "location": [
          {
            "location": {
              "display": "General Ward, Ruang 1 No 3",
              "reference": "Location/ef011065-38c9-46f8-9c35-d1fe68966a3e"
            }
          }
        ],
        "statusHistory": [
          {
            "status": "arrived",
            "period": {
              "start": "2022-12-30T07:00:30+07:00",
              "end": "2022-12-30T07:15:30+07:00"
            }
          },
          {
            "period": {
              "start": "2022-12-30T07:15:30+07:00",
              "end": "2022-12-30T15:30:30+07:00"
            },
            "status": "in-progress"
          },
          {
            "period": {
              "start": "2022-12-30T15:30:30+07:00",
              "end": "2022-12-30T15:30:30+07:00"
            },
            "status": "finished"
          }
        ],
        "serviceProvider": {
          "reference": "Organization/10000004"
        }
      },
      "request": {
        "method": "PUT",
        "url": "Encounter/45e436ea-d6c7-4059-8cbe-e00fb2c665d8"
      }
    }
  ]
}