{
  "resourceType": "Bundle",
  "type": "transaction",
  "entry": [
    {
      "fullUrl": "urn:uuid:3fc32f06-f711-440a-abda-2ff2c1bf53ec",
      "resource": {
        "resourceType": "Composition",
        "identifier": {
          "system": "http://sys-ids.kemkes.go.id/composition/10000004",
          "value": "2361720002"
        },
        "status": "final",
        "extension": [
          {
            "url": "https://fhir.kemkes.go.id/r4/StructureDefinition/DocumentStatus",
            "extension": [
              {
                "url": "statusCode",
                "valueCode": "final"
              },
              {
                "url": "statusTime",
                "valueDateTime": "2023-06-22T14:30:00+07:00"
              },
              {
                "url": "statusAssigner",
                "valueReference": {
                  "reference": "Practitioner/123",
                  "display": "Dr. John Doe"
                }
              }
            ]
          }
        ],
        "type": {
          "coding": [
            {
              "system": "http://terminology.kemkes.go.id/CodeSystem/composition-type",
              "code": "COM000002",
              "display": "Form Lahir Mati"
            }
          ]
        },
        "subject": {
          "reference": "Patient/100000030009",
          "display": "Baby of Teresa Lee (Fetus Not Named)"
        },
        "encounter": {
          "reference": "Encounter/45e436ea-d6c7-4059-8cbe-e00fb2c665d8"
        },
        "date": "2023-06-22T14:30:00+07:00",
        "author": [
          {
            "reference": "Practitioner/N10000001",
            "display": "Dokter Bronsig"
          }
        ],
        "title": "Notifikasi Kematian Perinatal",
        "attester": [
          {
            "mode": "legal",
            "party": {
              "reference": "Organization/10000004",
              "display": "Puskesmas Sangat Waras"
            }
          }
        ],
        "section": [
          {
            "title": "Riwayat Kematian Anak",
            "code": {
              "coding": [
                {
                  "system": "http://loinc.org",
                  "code": "64297-5",
                  "display": "DeathInvestigation"
                }
              ]
            },
            "focus": {
              "reference": "Patient/100000030009",
              "display": "Baby of Teresa Lee (Fetus Not Named)"
            },
            "entry": [
              {
                "display": "Tempat Meninggal Faskes",
                "reference": "urn:uuid:93fb25ed-5566-4c97-975e-25bfb18a79b8"
              },
              {
                "display": "Jenis Kematian",
                "reference": "urn:uuid:c238dbef-13b7-4641-bcac-39efcc8ae48f"
              },
              {
                "display": "Tanggal dan Jam Meninggal",
                "reference": "urn:uuid:1bd4f381-4518-472d-9714-0bc76421da9e"
              },
              {
                "display": "Masa Terjadi Kematian Anak",
                "reference": "urn:uuid:3a7d80eb-7b9a-4761-809b-e155205852d8"
              },
              {
                "display": "Dugaan Sebab Kematian",
                "reference": "urn:uuid:0396b598-b28d-4f5c-8917-550e0b68a612"
              },
              {
                "display": "Jenis Tempat Meninggal",
                "reference": "urn:uuid:a45ce50a-7b00-4b49-985c-5e3b46f7b372"
              },
              {
                "display": "Maserasi",
                "reference": "urn:uuid:013dcfcc-2c69-4b59-8ebd-04061bcf1f64"
              },
              {
                "display": "Keluhan/Gejala Utama Sebelum Bayi Meninggal",
                "reference": "urn:uuid:90c958b9-0273-420f-8a0f-7c5b1dc11311"
              },
              {
                "display": "Kondisi Ibu sebelum janin meninggal",
                "reference": "urn:uuid:05a7c9fc-7097-4c55-b2e8-081a64fd48d0"
              }
            ]
          },
          {
            "title": "Riwayat Persalinan",
            "code": {
              "coding": [
                {
                  "system": "http://loinc.org",
                  "code": "15508-5",
                  "display": "Labor and delivery records"
                }
              ]
            },
            "focus": {
              "reference": "Patient/100000030009",
              "display": "Baby of Teresa Lee (Fetus Not Named)"
            },
            "entry": [
              {
                "display": "Berat Lahir (dalam gram)",
                "reference": "urn:uuid:493e888d-b22d-4877-ac60-6d731482e1ab"
              },
              {
                "display": "Kelainan Bawaan",
                "reference": "urn:uuid:69b48064-b605-4944-8ec7-5e207d3f2c83"
              }
            ]
          },
          {
            "title": "Riwayat Kehamilan",
            "code": {
              "coding": [
                {
                  "system": "http://loinc.org",
                  "code": "57073-9",
                  "display": "Prenatal records"
                }
              ]
            },
            "focus": {
              "reference": "Patient/P02280547535",
              "display": "Patient - Mother (Teresa Lee)"
            },
            "entry": [
              {
                "display": "Gravida",
                "reference": "urn:uuid:ee28d7b9-8912-4e64-a4ae-ea9b05419b0c"
              },
              {
                "display": "Usia kehamilan",
                "reference": "urn:uuid:30ae2630-80ed-4046-a7be-17b069de4d2e"
              },
              {
                "display": "Tanggal HPHT",
                "reference": "urn:uuid:ceb122af-e464-463d-91ec-7f7fc84e3b63"
              }
            ]
          },
          {
            "title": "Data Dasar Ibu",
            "code": {
              "coding": [
                {
                  "system": "http://loinc.org",
                  "code": "45970-1",
                  "display": "Demographic information section"
                }
              ]
            },
            "focus": {
              "reference": "Patient/P02280547535",
              "display": "Patient - Mother (Teresa Lee)"
            },
            "entry": [
              {
                "display": "Umur Ibu Ketika Anak Meninggal",
                "reference": "urn:uuid:af8f89dd-51f5-43b8-b7dc-36df958e3f52"
              }
            ]
          }
        ]
      },
      "request": {
        "method": "POST",
        "url": "Composition"
      }
    },
    {
      "fullUrl": "urn:uuid:93fb25ed-5566-4c97-975e-25bfb18a79b8",
      "resource": {
        "resourceType": "Location",
        "name": "Puskemas Sangat Waras",
        "type": [
          {
            "coding": [
              {
                "system": "http://terminology.kemkes.go.id/CodeSystem/location-type",
                "code": "LT000002",
                "display": "Tempat Meninggal Faskes"
              }
            ]
          },
          {
            "coding": [
              {
                "system": "http://terminology.kemkes.go.id/CodeSystem/location-type",
                "code": "LT000005",
                "display": "Alamat Mati"
              }
            ]
          }
        ],
        "managingOrganization": {
          "reference": "Organization/10000004",
          "display": "Puskesmas Sangat Waras"
        },
        "address": {
          "use": "work",
          "line": [
            "Gd. Prof. Dr. Sujudi Lt.5, Jl. H.R. Rasuna Said Blok X5 Kav. 4-9 Kuningan"
          ],
          "city": "Jakarta",
          "postalCode": "12950",
          "country": "ID",
          "extension": [
            {
              "url": "https://fhir.kemkes.go.id/r4/StructureDefinition/administrativeCode",
              "extension": [
                {
                  "url": "province",
                  "valueCode": "10"
                },
                {
                  "url": "city",
                  "valueCode": "1010"
                },
                {
                  "url": "district",
                  "valueCode": "1010101"
                },
                {
                  "url": "village",
                  "valueCode": "101010110"
                },
                {
                  "url": "rt",
                  "valueCode": "1"
                },
                {
                  "url": "rw",
                  "valueCode": "25"
                }
              ]
            }
          ]
        }
      },
      "request": {
        "method": "POST",
        "url": "Location"
      }
    },
    {
      "fullUrl": "urn:uuid:c238dbef-13b7-4641-bcac-39efcc8ae48f",
      "resource": {
        "resourceType": "Observation",
        "identifier": [
          {
            "system": "http://sys-ids.kemkes.go.id/observation/1000004",
            "value": "O1111111"
          }
        ],
        "status": "final",
        "category": [
          {
            "coding": [
              {
                "system": "http://terminology.hl7.org/CodeSystem/observation-category",
                "code": "survey",
                "display": "Survey"
              }
            ]
          }
        ],
        "code": {
          "coding": [
            {
              "system": "http://loinc.org",
              "code": "64710-7",
              "display": "Was your pregnancy a live birth, stillbirth, miscarriage, abortion, or ectopic pregnancy [PhenX]"
            }
          ]
        },
        "subject": {
          "reference": "Patient/100000030009",
          "display": "Baby of Teresa Lee (Fetus Not Named)"
        },
        "encounter": {
          "reference": "Encounter/45e436ea-d6c7-4059-8cbe-e00fb2c665d8"
        },
        "effectiveDateTime": "2023-01-01T15:30:25+07:00",
        "issued": "2023-01-01T15:30:25+07:00",
        "performer": [
          {
            "reference": "Practitioner/N10000001",
            "display": "Dokter Bronsig"
          }
        ],
        "valueCodeableConcept": {
          "coding": [
            {
              "system": "http://snomed.info/sct",
              "code": "237361005",
              "display": "Antepartum fetal death"
            }
          ]
        }
      },
      "request": {
        "method": "POST",
        "url": "Observation"
      }
    },
    {
      "fullUrl": "urn:uuid:1bd4f381-4518-472d-9714-0bc76421da9e",
      "resource": {
        "resourceType": "Observation",
        "identifier": [
          {
            "system": "http://sys-ids.kemkes.go.id/observation/1000004",
            "value": "O1111111"
          }
        ],
        "status": "final",
        "category": [
          {
            "coding": [
              {
                "system": "http://terminology.hl7.org/CodeSystem/observation-category",
                "code": "survey",
                "display": "Survey"
              }
            ]
          }
        ],
        "code": {
          "coding": [
            {
              "system": "http://loinc.org",
              "code": "81956-5",
              "display": "Date and time of death [TimeStamp]"
            }
          ]
        },
        "subject": {
          "reference": "Patient/100000030009",
          "display": "Baby of Teresa Lee (Fetus Not Named)"
        },
        "encounter": {
          "reference": "Encounter/45e436ea-d6c7-4059-8cbe-e00fb2c665d8"
        },
        "effectiveDateTime": "2023-01-01T15:30:25+07:00",
        "issued": "2023-01-01T15:30:25+07:00",
        "performer": [
          {
            "reference": "Practitioner/N10000001",
            "display": "Dokter Bronsig"
          }
        ],
        "valueDateTime": "2023-01-01T15:30:25+07:00"
      },
      "request": {
        "method": "POST",
        "url": "Observation"
      }
    },
    {
      "fullUrl": "urn:uuid:3a7d80eb-7b9a-4761-809b-e155205852d8",
      "resource": {
        "resourceType": "Observation",
        "identifier": [
          {
            "system": "http://sys-ids.kemkes.go.id/observation/1000004",
            "value": "O1111111"
          }
        ],
        "status": "final",
        "category": [
          {
            "coding": [
              {
                "system": "http://terminology.hl7.org/CodeSystem/observation-category",
                "code": "survey",
                "display": "Survey"
              }
            ]
          }
        ],
        "code": {
          "coding": [
            {
              "system": "http://terminology.kemkes.go.id/CodeSystem/clinical-term",
              "code": "OC000027",
              "display": "Masa terjadi Kematian Anak"
            },
            {
              "system": "http://terminology.kemkes.go.id/CodeSystem/who/ikp-custom-codes",
              "code": "IKP.SS.DE2",
              "display": "Masa Terjadi Kematian Anak"
            }
          ]
        },
        "subject": {
          "reference": "Patient/100000030009",
          "display": "Baby of Teresa Lee (Fetus Not Named)"
        },
        "encounter": {
          "reference": "Encounter/45e436ea-d6c7-4059-8cbe-e00fb2c665d8"
        },
        "effectiveDateTime": "2023-01-01T15:30:25+07:00",
        "issued": "2023-01-01T15:30:25+07:00",
        "performer": [
          {
            "reference": "Practitioner/N10000001",
            "display": "Dokter Bronsig"
          }
        ],
        "valueCodeableConcept": {
          "coding": [
            {
              "system": "http://snomed.info/sct",
              "code": "1156673006",
              "display": "Fetal antenatal period"
            }
          ],
          "text": "Sebelum proses persalinan/sedang hamil"
        }
      },
      "request": {
        "method": "POST",
        "url": "Observation"
      }
    },
    {
      "fullUrl": "urn:uuid:0396b598-b28d-4f5c-8917-550e0b68a612",
      "resource": {
        "resourceType": "Observation",
        "status": "final",
        "category": [
          {
            "coding": [
              {
                "system": "http://terminology.hl7.org/CodeSystem/observation-category",
                "code": "survey",
                "display": "Survey"
              }
            ]
          }
        ],
        "code": {
          "coding": [
            {
              "system": "http://terminology.kemkes.go.id/CodeSystem/clinical-term",
              "code": "OC000033",
              "display": "Dugaan Sebab Kematian"
            }
          ]
        },
        "subject": {
          "reference": "Patient/100000030009",
          "display": "Baby of Teresa Lee (Fetus Not Named)"
        },
        "encounter": {
          "reference": "Encounter/45e436ea-d6c7-4059-8cbe-e00fb2c665d8"
        },
        "effectiveDateTime": "2023-01-01T15:30:25+07:00",
        "issued": "2023-01-01T15:30:25+07:00",
        "performer": [
          {
            "reference": "Practitioner/N10000001",
            "display": "Dokter Bronsig"
          }
        ],
        "valueCodeableConcept": {
          "coding": [
            {
              "system": "http://snomed.info/sct",
              "code": "276659006",
              "display": "Clinical infection of newborn"
            }
          ]
        }
      },
      "request": {
        "method": "POST",
        "url": "Observation"
      }
    },
    {
      "fullUrl": "urn:uuid:a45ce50a-7b00-4b49-985c-5e3b46f7b372",
      "resource": {
        "resourceType": "Observation",
        "identifier": [
          {
            "system": "http://sys-ids.kemkes.go.id/observation/1000004",
            "value": "O1111111"
          }
        ],
        "status": "final",
        "category": [
          {
            "coding": [
              {
                "system": "http://terminology.hl7.org/CodeSystem/observation-category",
                "code": "survey",
                "display": "Survey"
              }
            ]
          }
        ],
        "code": {
          "coding": [
            {
              "system": "http://terminology.kemkes.go.id/CodeSystem/clinical-term",
              "code": "OC000028",
              "display": "Jenis Tempat Meninggal"
            }
          ]
        },
        "subject": {
          "reference": "Patient/100000030009",
          "display": "Baby of Teresa Lee (Fetus Not Named)"
        },
        "encounter": {
          "reference": "Encounter/45e436ea-d6c7-4059-8cbe-e00fb2c665d8"
        },
        "effectiveDateTime": "2023-01-01T15:30:25+07:00",
        "issued": "2023-01-01T15:30:25+07:00",
        "performer": [
          {
            "reference": "Practitioner/N10000001",
            "display": "Dokter Bronsig"
          }
        ],
        "valueCodeableConcept": {
          "coding": [
            {
              "system": "http://snomed.info/sct",
              "code": "79993009",
              "display": "Government hospital"
            }
          ],
          "text": "RS Pemerintah"
        }
      },
      "request": {
        "method": "POST",
        "url": "Observation"
      }
    },
    {
      "fullUrl": "urn:uuid:013dcfcc-2c69-4b59-8ebd-04061bcf1f64",
      "resource": {
        "resourceType": "Observation",
        "identifier": [
          {
            "system": "http://sys-ids.kemkes.go.id/observation/1000004",
            "value": "O1111111"
          }
        ],
        "status": "final",
        "category": [
          {
            "coding": [
              {
                "system": "http://terminology.hl7.org/CodeSystem/observation-category",
                "code": "survey",
                "display": "Survey"
              }
            ]
          }
        ],
        "code": {
          "coding": [
            {
              "system": "http://snomed.info/sct",
              "code": "198901003",
              "display": "Macerated fetus"
            }
          ]
        },
        "subject": {
          "reference": "Patient/100000030009",
          "display": "Baby of Teresa Lee (Fetus Not Named)"
        },
        "encounter": {
          "reference": "Encounter/45e436ea-d6c7-4059-8cbe-e00fb2c665d8"
        },
        "effectiveDateTime": "2023-01-01T15:30:25+07:00",
        "issued": "2023-01-01T15:30:25+07:00",
        "performer": [
          {
            "reference": "Practitioner/N10000001",
            "display": "Dokter Bronsig"
          }
        ],
        "valueCodeableConcept": {
          "coding": [
            {
              "system": "http://terminology.kemkes.go.id/CodeSystem/clinical-term",
              "code": "OV000048",
              "display": "Maserasi Tingkat Satu"
            }
          ]
        }
      },
      "request": {
        "method": "POST",
        "url": "Observation"
      }
    },
    {
      "fullUrl": "urn:uuid:90c958b9-0273-420f-8a0f-7c5b1dc11311",
      "resource": {
        "resourceType": "Condition",
        "verificationStatus": {
          "coding": [
            {
              "system": "http://terminology.hl7.org/CodeSystem/condition-ver-status",
              "code": "confirmed",
              "display": "Confirmed"
            }
          ]
        },
        "category": [
          {
            "coding": [
              {
                "system": "http://terminology.hl7.org/CodeSystem/condition-category",
                "code": "problem-list-item",
                "display": "Problem List Item"
              }
            ]
          }
        ],
        "code": {
          "coding": [
            {
              "system": "http://snomed.info/sct",
              "code": "91175000",
              "display": "Seizure"
            }
          ]
        },
        "subject": {
          "reference": "Patient/100000030009",
          "display": "Baby of Teresa Lee (Fetus Not Named)"
        },
        "encounter": {
          "reference": "Encounter/45e436ea-d6c7-4059-8cbe-e00fb2c665d8"
        },
        "onsetDateTime": "2023-01-01T15:30:25+07:00",
        "recordedDate": "2023-01-01T15:30:25+07:00",
        "recorder": {
          "reference": "Practitioner/N10000001",
          "display": "Dokter Bronsig"
        }
      },
      "request": {
        "method": "POST",
        "url": "Condition"
      }
    },
    {
      "fullUrl": "urn:uuid:05a7c9fc-7097-4c55-b2e8-081a64fd48d0",
      "resource": {
        "resourceType": "Observation",
        "identifier": [
          {
            "system": "http://sys-ids.kemkes.go.id/observation/1000004",
            "value": "O1111111"
          }
        ],
        "status": "final",
        "category": [
          {
            "coding": [
              {
                "system": "http://terminology.hl7.org/CodeSystem/observation-category",
                "code": "social-history",
                "display": "Social History"
              }
            ]
          }
        ],
        "code": {
          "coding": [
            {
              "system": "http://terminology.kemkes.go.id/CodeSystem/clinical-term",
              "code": "OC000031",
              "display": "Kondisi ibu sebelum janin meninggal (Penyulit Obstetrik)"
            }
          ]
        },
        "subject": {
          "reference": "Patient/100000030009",
          "display": "Baby of Teresa Lee (Fetus Not Named)"
        },
        "encounter": {
          "reference": "Encounter/45e436ea-d6c7-4059-8cbe-e00fb2c665d8"
        },
        "effectiveDateTime": "2023-01-01T15:30:25+07:00",
        "issued": "2023-01-01T15:30:25+07:00",
        "performer": [
          {
            "reference": "Practitioner/N10000001",
            "display": "Dokter Bronsig"
          }
        ],
        "valueCodeableConcept": {
          "coding": [
            {
              "system": "http://snomed.info/sct",
              "code": "90325002",
              "display": "Vomiting of pregnancy"
            }
          ]
        }
      },
      "request": {
        "method": "POST",
        "url": "Observation"
      }
    },
    {
      "fullUrl": "urn:uuid:493e888d-b22d-4877-ac60-6d731482e1ab",
      "resource": {
        "resourceType": "Observation",
        "identifier": [
          {
            "system": "http://sys-ids.kemkes.go.id/observation/1000004",
            "value": "O1111111"
          }
        ],
        "category": [
          {
            "coding": [
              {
                "system": "http://terminology.hl7.org/CodeSystem/observation-category",
                "code": "survey",
                "display": "Survey"
              }
            ]
          }
        ],
        "status": "final",
        "code": {
          "coding": [
            {
              "system": "http://loinc.org",
              "code": "8339-4",
              "display": "Birth weight Measured"
            }
          ]
        },
        "subject": {
          "reference": "Patient/100000030009",
          "display": "Baby of Teresa Lee (Fetus Not Named)"
        },
        "encounter": {
          "reference": "Encounter/45e436ea-d6c7-4059-8cbe-e00fb2c665d8"
        },
        "effectiveDateTime": "2023-01-01T15:30:25+07:00",
        "issued": "2023-01-01T15:30:25+07:00",
        "performer": [
          {
            "reference": "Practitioner/N10000001",
            "display": "Dokter Bronsig"
          }
        ],
        "valueQuantity": {
          "value": 3000,
          "unit": "gram",
          "system": "http://unitsofmeasure.org",
          "code": "g"
        }
      },
      "request": {
        "method": "POST",
        "url": "Observation"
      }
    },
    {
      "fullUrl": "urn:uuid:69b48064-b605-4944-8ec7-5e207d3f2c83",
      "resource": {
        "resourceType": "Observation",
        "identifier": [
          {
            "system": "http://sys-ids.kemkes.go.id/observation/1000004",
            "value": "O1111111"
          }
        ],
        "status": "final",
        "code": {
          "coding": [
            {
              "system": "http://snomed.info/sct",
              "code": "276654001",
              "display": "Congenital malformation"
            }
          ]
        },
        "subject": {
          "reference": "Patient/100000030009",
          "display": "Baby of Teresa Lee (Fetus Not Named)"
        },
        "encounter": {
          "reference": "Encounter/45e436ea-d6c7-4059-8cbe-e00fb2c665d8"
        },
        "effectiveDateTime": "2023-01-01T15:30:25+07:00",
        "issued": "2023-01-01T15:30:25+07:00",
        "performer": [
          {
            "reference": "Practitioner/N10000001",
            "display": "Dokter Bronsig"
          }
        ],
        "valueCodeableConcept": {
          "coding": [
            {
              "system": "http://snomed.info/sct",
              "code": "89369001",
              "display": "Anencephaly"
            }
          ]
        }
      },
      "request": {
        "method": "POST",
        "url": "Observation"
      }
    },
    {
      "fullUrl": "urn:uuid:ee28d7b9-8912-4e64-a4ae-ea9b05419b0c",
      "resource": {
        "resourceType": "Observation",
        "identifier": [
          {
            "system": "http://sys-ids.kemkes.go.id/observation/1000004",
            "value": "O1111111"
          }
        ],
        "status": "final",
        "category": [
          {
            "coding": [
              {
                "system": "http://terminology.hl7.org/CodeSystem/observation-category",
                "code": "survey",
                "display": "Survey"
              }
            ]
          }
        ],
        "code": {
          "coding": [
            {
              "system": "http://loinc.org",
              "code": "11996-6",
              "display": "[#] Pregnancies"
            },
            {
              "system": "http://fhir.org/guides/who/anc-cds/CodeSystem/anc-custom-codes",
              "code": "ANC.B6.DE24",
              "display": "Number of pregnancies (gravida)"
            }
          ]
        },
        "subject": {
          "reference": "Patient/P02280547535",
          "display": "Patient - Mother (Teresa Lee)"
        },
        "encounter": {
          "reference": "Encounter/45e436ea-d6c7-4059-8cbe-e00fb2c665d8"
        },
        "effectiveDateTime": "2023-01-01T15:30:25+07:00",
        "issued": "2023-01-01T15:30:25+07:00",
        "performer": [
          {
            "reference": "Practitioner/N10000001",
            "display": "Dokter Bronsig"
          }
        ],
        "valueInteger": 2
      },
      "request": {
        "method": "POST",
        "url": "Observation"
      }
    },
    {
      "fullUrl": "urn:uuid:30ae2630-80ed-4046-a7be-17b069de4d2e",
      "resource": {
        "resourceType": "Observation",
        "identifier": [
          {
            "system": "http://sys-ids.kemkes.go.id/observation/1000004",
            "value": "O1111111"
          }
        ],
        "status": "final",
        "category": [
          {
            "coding": [
              {
                "system": "http://terminology.hl7.org/CodeSystem/observation-category",
                "code": "survey",
                "display": "Survey"
              }
            ]
          }
        ],
        "code": {
          "coding": [
            {
              "system": "http://loinc.org",
              "code": "18185-9",
              "display": "Gestational age"
            },
            {
              "system": "http://fhir.org/guides/who/anc-cds/CodeSystem/anc-custom-codes",
              "code": "ANC.B6.DE17",
              "display": "Gestational age"
            }
          ]
        },
        "subject": {
          "reference": "Patient/P02280547535",
          "display": "Patient - Mother (Teresa Lee)"
        },
        "encounter": {
          "reference": "Encounter/45e436ea-d6c7-4059-8cbe-e00fb2c665d8"
        },
        "effectiveDateTime": "2023-01-01T15:30:25+07:00",
        "issued": "2023-01-01T15:30:25+07:00",
        "performer": [
          {
            "reference": "Practitioner/N10000001",
            "display": "Dokter Bronsig"
          }
        ],
        "valueQuantity": {
          "value": 7,
          "unit": "week",
          "system": "http://unitsofmeasure.org",
          "code": "wk"
        }
      },
      "request": {
        "method": "POST",
        "url": "Observation"
      }
    },
    {
      "fullUrl": "urn:uuid:caea22e9-4fd0-440d-9427-b42dbb333780",
      "resource": {
        "resourceType": "Observation",
        "identifier": [
          {
            "system": "http://sys-ids.kemkes.go.id/observation/1000004",
            "value": "O1111111"
          }
        ],
        "status": "final",
        "category": [
          {
            "coding": [
              {
                "system": "http://terminology.hl7.org/CodeSystem/observation-category",
                "code": "survey",
                "display": "Survey"
              }
            ]
          }
        ],
        "code": {
          "coding": [
            {
              "system": "http://loinc.org",
              "code": "8665-2",
              "display": "Last menstrual period start date"
            },
            {
              "system": "http://fhir.org/guides/who/anc-cds/CodeSystem/anc-custom-codes",
              "code": "ANC.B6.DE14",
              "display": "Last menstrual period (LMP) date"
            }
          ]
        },
        "subject": {
          "reference": "Patient/P02280547535",
          "display": "Patient - Mother (Teresa Lee)"
        },
        "encounter": {
          "reference": "Encounter/45e436ea-d6c7-4059-8cbe-e00fb2c665d8"
        },
        "effectiveDateTime": "2023-01-01T15:30:25+07:00",
        "issued": "2023-01-01T15:30:25+07:00",
        "performer": [
          {
            "reference": "Practitioner/N10000001",
            "display": "Dokter Bronsig"
          }
        ],
        "valueDateTime": "2021-11-01T15:30:25+07:00"
      },
      "request": {
        "method": "POST",
        "url": "Observation"
      }
    },
    {
      "fullUrl": "urn:uuid:af8f89dd-51f5-43b8-b7dc-36df958e3f52",
      "resource": {
        "resourceType": "Observation",
        "identifier": [
          {
            "system": "http://sys-ids.kemkes.go.id/observation/1000004",
            "value": "O1111111"
          }
        ],
        "status": "final",
        "category": [
          {
            "coding": [
              {
                "system": "http://terminology.hl7.org/CodeSystem/observation-category",
                "code": "survey",
                "display": "Survey"
              }
            ]
          }
        ],
        "code": {
          "coding": [
            {
              "system": "http://loinc.org",
              "code": "30525-0",
              "display": "Age"
            }
          ]
        },
        "subject": {
          "reference": "Patient/P02280547535",
          "display": "Patient - Mother (Teresa Lee)"
        },
        "encounter": {
          "reference": "Encounter/45e436ea-d6c7-4059-8cbe-e00fb2c665d8"
        },
        "effectiveDateTime": "2023-01-01T15:30:25+07:00",
        "issued": "2023-01-01T15:30:25+07:00",
        "performer": [
          {
            "reference": "Practitioner/N10000001",
            "display": "Dokter Bronsig"
          }
        ],
        "valueQuantity": {
          "value": 40,
          "unit": "years",
          "system": "http://unitsofmeasure.org",
          "code": "a"
        }
      },
      "request": {
        "method": "POST",
        "url": "Observation"
      }
    },
    {
      "fullUrl": "urn:uuid:45e436ea-d6c7-4059-8cbe-e00fb2c665d8",
      "resource": {
        "resourceType": "Encounter",
        "id": "45e436ea-d6c7-4059-8cbe-e00fb2c665d8",
        "identifier": [
          {
            "system": "http://sys-ids.kemkes.go.id/encounter/10000004",
            "value": "MPDN-MATERNAL-23_3578_0053"
          },
          {
            "use": "temp",
            "system": "http://sys-ids.kemkes.go.id/mpdn/10000004",
            "value": "MPDN-MATERNAL-23_3578_0053"
          }
        ],
        "status": "finished",
        "class": {
          "system": "http://terminology.hl7.org/CodeSystem/v3-ActCode",
          "code": "AMB",
          "display": "ambulatory"
        },
        "subject": {
          "display": "Patient - Mother (Teresa Lee)",
          "reference": "Patient/P02280547535"
        },
        "participant": [
          {
            "type": [
              {
                "coding": [
                  {
                    "system": "http://terminology.hl7.org/CodeSystem/v3-ParticipationType",
                    "code": "ATND",
                    "display": "attender"
                  }
                ]
              }
            ],
            "individual": {
              "reference": "Practitioner/N10000001",
              "display": "Dokter Bronsig"
            }
          }
        ],
        "period": {
          "start": "2022-12-30T07:00:30+07:00",
          "end": "2022-12-30T15:30:30+07:00"
        },
        "location": [
          {
            "location": {
              "display": "General Ward, Ruang 1 No 3",
              "reference": "Location/ef011065-38c9-46f8-9c35-d1fe68966a3e"
            }
          }
        ],
        "statusHistory": [
          {
            "status": "arrived",
            "period": {
              "start": "2022-12-30T07:00:30+07:00",
              "end": "2022-12-30T07:15:30+07:00"
            }
          },
          {
            "period": {
              "start": "2022-12-30T07:15:30+07:00",
              "end": "2022-12-30T15:30:30+07:00"
            },
            "status": "in-progress"
          },
          {
            "period": {
              "start": "2022-12-30T15:30:30+07:00",
              "end": "2022-12-30T15:30:30+07:00"
            },
            "status": "finished"
          }
        ],
        "serviceProvider": {
          "reference": "Organization/10000004"
        }
      },
      "request": {
        "method": "PUT",
        "url": "Encounter/45e436ea-d6c7-4059-8cbe-e00fb2c665d8"
      }
    }
  ]
}