{
  "resourceType": "Bundle",
  "type": "transaction",
  "entry": [
    {
      "fullUrl": "urn:uuid:3fc32f06-f711-440a-abda-2ff2c1bf53ec",
      "resource": {
        "resourceType": "Composition",
        "identifier": {
          "system": "http://sys-ids.kemkes.go.id/composition/10000004",
          "value": "2361720002"
        },
        "status": "final",
        "extension": [
          {
            "url": "https://fhir.kemkes.go.id/r4/StructureDefinition/DocumentStatus",
            "extension": [
              {
                "url": "statusCode",
                "valueCode": "final"
              },
              {
                "url": "statusTime",
                "valueDateTime": "2023-06-22T14:30:00+07:00"
              },
              {
                "url": "statusAssigner",
                "valueReference": {
                  "reference": "Practitioner/123",
                  "display": "Dr. John Doe"
                }
              }
            ]
          }
        ],
        "type": {
          "coding": [
            {
              "system": "http://terminology.kemkes.go.id/CodeSystem/composition-type",
              "code": "COM000003",
              "display": "Form Lahir Hidup"
            }
          ]
        },
        "subject": {
          "reference": "Patient/100000030009",
          "display": "Baby of Teresa Lee (Fetus Not Named)"
        },
        "encounter": {
          "reference": "Encounter/45e436ea-d6c7-4059-8cbe-e00fb2c665d8"
        },
        "date": "2023-06-22T14:30:30+07:00",
        "author": [
          {
            "reference": "Practitioner/N10000001",
            "display": "Dokter Bronsig"
          }
        ],
        "title": "Notifikasi Kematian Perinatal",
        "attester": [
          {
            "mode": "legal",
            "party": {
              "reference": "Organization/10000004",
              "display": "Puskesmas Sangat Waras"
            }
          }
        ],
        "section": [
          {
            "title": "Riwayat Kematian Anak",
            "code": {
              "coding": [
                {
                  "system": "http://loinc.org",
                  "code": "64297-5",
                  "display": "DeathInvestigation"
                }
              ]
            },
            "focus": {
              "reference": "Patient/100000030009",
              "display": "Baby of Teresa Lee (Fetus Not Named)"
            },
            "entry": [
              {
                "display": "Tempat Meninggal Faskes",
                "reference": "urn:uuid:93fb25ed-5566-4c97-975e-25bfb18a79b8"
              },
              {
                "display": "Jenis Kematian",
                "reference": "urn:uuid:c238dbef-13b7-4641-bcac-39efcc8ae48f"
              },
              {
                "display": "Usia Ketika Meninggal",
                "reference": "urn:uuid:842978d0-ce9e-4261-bfb5-2454b22e7ebc"
              },
              {
                "display": "Berat Saat Meninggal",
                "reference": "urn:uuid:555fea33-3758-4ac6-8ab4-58f44ae03393"
              }
            ]
          },
          {
            "title": "Riwayat Persalinan",
            "code": {
              "coding": [
                {
                  "system": "http://loinc.org",
                  "code": "15508-5",
                  "display": "Labor and delivery records"
                }
              ]
            },
            "focus": {
              "reference": "Patient/100000030009",
              "display": "Baby of Teresa Lee (Fetus Not Named)"
            },
            "entry": [
              {
                "display": "Alamat Lahir",
                "reference": "urn:uuid:9c5d9423-dbb5-4e7d-b50d-37975efb5405"
              },
              {
                "display": "Urutan Kelahiran (Apabila kembar)",
                "reference": "urn:uuid:a780f795-3f60-4c61-8183-950828554bd1"
              },
              {
                "display": "Jenis Tempat Bersalin",
                "reference": "urn:uuid:42c99d94-0f6a-4089-bbea-bddf48349481"
              }
            ]
          },
          {
            "title": "Riwayat Kehamilan",
            "code": {
              "coding": [
                {
                  "system": "http://loinc.org",
                  "code": "57073-9",
                  "display": "Prenatal records"
                }
              ]
            },
            "focus": {
              "reference": "Patient/P02280547535",
              "display": "Patient - Mother (Teresa Lee)"
            },
            "entry": [
              {
                "display": "Kehamilan Tunggal/Kembar",
                "reference": "urn:uuid:8e9abd33-7bc8-4071-a48b-135bb20fd07b"
              }
            ]
          }
        ]
      },
      "request": {
        "method": "POST",
        "url": "Composition"
      }
    },
    {
      "fullUrl": "urn:uuid:93fb25ed-5566-4c97-975e-25bfb18a79b8",
      "resource": {
        "resourceType": "Location",
        "name": "Puskemas Sangat Waras",
        "type": [
          {
            "coding": [
              {
                "system": "http://terminology.kemkes.go.id/CodeSystem/location-type",
                "code": "LT000002",
                "display": "Tempat Meninggal Faskes"
              }
            ]
          },
          {
            "coding": [
              {
                "system": "http://terminology.kemkes.go.id/CodeSystem/location-type",
                "code": "LT000005",
                "display": "Alamat Mati"
              }
            ]
          }
        ],
        "managingOrganization": {
          "reference": "Organization/10000004",
          "display": "Puskesmas Sangat Waras"
        },
        "address": {
          "use": "work",
          "line": [
            "Gd. Prof. Dr. Sujudi Lt.5, Jl. H.R. Rasuna Said Blok X5 Kav. 4-9 Kuningan"
          ],
          "city": "Jakarta",
          "postalCode": "12950",
          "country": "ID",
          "extension": [
            {
              "url": "https://fhir.kemkes.go.id/r4/StructureDefinition/administrativeCode",
              "extension": [
                {
                  "url": "province",
                  "valueCode": "10"
                },
                {
                  "url": "city",
                  "valueCode": "1010"
                },
                {
                  "url": "district",
                  "valueCode": "1010101"
                },
                {
                  "url": "village",
                  "valueCode": "101010110"
                },
                {
                  "url": "rt",
                  "valueCode": "1"
                },
                {
                  "url": "rw",
                  "valueCode": "30"
                }
              ]
            }
          ]
        }
      },
      "request": {
        "method": "POST",
        "url": "Location"
      }
    },
    {
      "fullUrl": "urn:uuid:c238dbef-13b7-4641-bcac-39efcc8ae48f",
      "resource": {
        "resourceType": "Observation",
        "identifier": [
          {
            "system": "http://sys-ids.kemkes.go.id/observation/1000004",
            "value": "O111111"
          }
        ],
        "status": "final",
        "category": [
          {
            "coding": [
              {
                "system": "http://terminology.hl7.org/CodeSystem/observation-category",
                "code": "survey",
                "display": "Survey"
              }
            ]
          }
        ],
        "code": {
          "coding": [
            {
              "system": "http://loinc.org",
              "code": "64710-7",
              "display": "Was your pregnancy a live birth, stillbirth, miscarriage, abortion, or ectopic pregnancy [PhenX]"
            }
          ]
        },
        "subject": {
          "reference": "Patient/100000030009",
          "display": "Baby of Teresa Lee (Fetus Not Named)"
        },
        "encounter": {
          "reference": "Encounter/45e436ea-d6c7-4059-8cbe-e00fb2c665d8"
        },
        "effectiveDateTime": "2023-06-22T14:30:30+07:00",
        "issued": "2023-06-22T14:30:30+07:00",
        "performer": [
          {
            "reference": "Practitioner/N10000001",
            "display": "Dokter Bronsig"
          }
        ],
        "valueCodeableConcept": {
          "coding": [
            {
              "system": "http://snomed.info/sct",
              "code": "276506001",
              "display": "Newborn death"
            }
          ]
        }
      },
      "request": {
        "method": "POST",
        "url": "Observation"
      }
    },
    {
      "fullUrl": "urn:uuid:842978d0-ce9e-4261-bfb5-2454b22e7ebc",
      "resource": {
        "resourceType": "Observation",
        "identifier": [
          {
            "system": "http://sys-ids.kemkes.go.id/observation/1000004",
            "value": "O111111"
          }
        ],
        "status": "final",
        "category": [
          {
            "coding": [
              {
                "system": "http://terminology.hl7.org/CodeSystem/observation-category",
                "code": "survey",
                "display": "Survey"
              }
            ]
          }
        ],
        "code": {
          "coding": [
            {
              "system": "http://loinc.org",
              "code": "39016-1",
              "display": "Age at death"
            }
          ]
        },
        "subject": {
          "reference": "Patient/100000030009",
          "display": "Baby of Teresa Lee (Fetus Not Named)"
        },
        "encounter": {
          "reference": "Encounter/45e436ea-d6c7-4059-8cbe-e00fb2c665d8"
        },
        "effectiveDateTime": "2023-01-01T15:30:30+07:00",
        "issued": "2023-01-01T15:30:30+07:00",
        "performer": [
          {
            "reference": "Practitioner/N10000001",
            "display": "Dokter Bronsig"
          }
        ],
        "valueQuantity": {
          "value": 120,
          "unit": "minutes",
          "system": "http://unitsofmeasure.org",
          "code": "min"
        }
      },
      "request": {
        "method": "POST",
        "url": "Observation"
      }
    },
    {
      "fullUrl": "urn:uuid:555fea33-3758-4ac6-8ab4-58f44ae03393",
      "resource": {
        "resourceType": "Observation",
        "identifier": [
          {
            "system": "http://sys-ids.kemkes.go.id/observation/1000004",
            "value": "O111111"
          }
        ],
        "status": "final",
        "code": {
          "coding": [
            {
              "system": "http://terminology.kemkes.go.id/CodeSystem/clinical-term",
              "code": "OC000030",
              "display": "Berat saat meninggal"
            }
          ]
        },
        "subject": {
          "reference": "Patient/100000030009",
          "display": "Baby of Teresa Lee (Fetus Not Named)"
        },
        "encounter": {
          "reference": "Encounter/45e436ea-d6c7-4059-8cbe-e00fb2c665d8"
        },
        "effectiveDateTime": "2023-01-01T15:30:30+07:00",
        "issued": "2023-01-01T15:30:30+07:00",
        "performer": [
          {
            "reference": "Practitioner/N10000001",
            "display": "Dokter Bronsig"
          }
        ],
        "valueQuantity": {
          "value": 3000,
          "unit": "gram",
          "system": "http://unitsofmeasure.org",
          "code": "g"
        }
      },
      "request": {
        "method": "POST",
        "url": "Observation"
      }
    },
    {
      "fullUrl": "urn:uuid:9c5d9423-dbb5-4e7d-b50d-37975efb5405",
      "resource": {
        "resourceType": "Location",
        "name": "Puskemas Ibu Anak",
        "type": [
          {
            "coding": [
              {
                "system": "http://terminology.kemkes.go.id/CodeSystem/location-type",
                "code": "LT000004",
                "display": "Alamat Lahir"
              }
            ]
          }
        ],
        "address": {
          "use": "work",
          "line": [
            "Gd. Prof. Dr. Sujudi Lt.5, Jl. H.R. Rasuna Said Blok X5 Kav. 4-9 Kuningan"
          ],
          "city": "Jakarta",
          "postalCode": "12950",
          "country": "ID",
          "extension": [
            {
              "url": "https://fhir.kemkes.go.id/r4/StructureDefinition/administrativeCode",
              "extension": [
                {
                  "url": "province",
                  "valueCode": "10"
                },
                {
                  "url": "city",
                  "valueCode": "1010"
                },
                {
                  "url": "district",
                  "valueCode": "1010101"
                },
                {
                  "url": "village",
                  "valueCode": "1010101101"
                },
                {
                  "url": "rt",
                  "valueCode": "1"
                },
                {
                  "url": "rw",
                  "valueCode": "30"
                }
              ]
            }
          ]
        }
      },
      "request": {
        "method": "POST",
        "url": "Location"
      }
    },
    {
      "fullUrl": "urn:uuid:a780f795-3f60-4c61-8183-950828554bd1",
      "resource": {
        "resourceType": "Observation",
        "identifier": [
          {
            "system": "http://sys-ids.kemkes.go.id/observation/1000004",
            "value": "O111111"
          }
        ],
        "status": "final",
        "category": [
          {
            "coding": [
              {
                "system": "http://terminology.hl7.org/CodeSystem/observation-category",
                "code": "survey",
                "display": "Survey"
              }
            ]
          }
        ],
        "code": {
          "coding": [
            {
              "system": "http://terminology.kemkes.go.id/CodeSystem/clinical-term",
              "code": "OC000029",
              "display": "Urutan ke (untuk bayi kembar)"
            }
          ]
        },
        "subject": {
          "reference": "Patient/100000030009",
          "display": "Baby of Teresa Lee (Fetus Not Named)"
        },
        "encounter": {
          "reference": "Encounter/45e436ea-d6c7-4059-8cbe-e00fb2c665d8"
        },
        "effectiveDateTime": "2023-06-22T14:30:30+07:00",
        "issued": "2023-06-22T14:30:30+07:00",
        "performer": [
          {
            "reference": "Practitioner/N10000001",
            "display": "Dokter Bronsig"
          }
        ],
        "valueInteger": 1
      },
      "request": {
        "method": "POST",
        "url": "Observation"
      }
    },
    {
      "fullUrl": "urn:uuid:42c99d94-0f6a-4089-bbea-bddf48349481",
      "resource": {
        "resourceType": "Observation",
        "identifier": [
          {
            "system": "http://sys-ids.kemkes.go.id/observation/1000004",
            "value": "O111111"
          }
        ],
        "status": "final",
        "category": [
          {
            "coding": [
              {
                "system": "http://terminology.hl7.org/CodeSystem/observation-category",
                "code": "survey",
                "display": "Survey"
              }
            ]
          }
        ],
        "code": {
          "coding": [
            {
              "system": "http://terminology.kemkes.go.id/CodeSystem/clinical-term",
              "code": "OC000037",
              "display": "Jenis Tempat Bersalin"
            }
          ]
        },
        "subject": {
          "reference": "Patient/100000030009",
          "display": "Baby of Teresa Lee (Fetus Not Named)"
        },
        "encounter": {
          "reference": "Encounter/45e436ea-d6c7-4059-8cbe-e00fb2c665d8"
        },
        "effectiveDateTime": "2023-06-22T14:30:30+07:00",
        "issued": "2023-06-22T14:30:30+07:00",
        "performer": [
          {
            "reference": "Practitioner/N10000001",
            "display": "Dokter Bronsig"
          }
        ],
        "valueCodeableConcept": {
          "coding": [
            {
              "system": "http://snomed.info/sct",
              "code": "79993009",
              "display": "Government hospital"
            }
          ]
        }
      },
      "request": {
        "method": "POST",
        "url": "Observation"
      }
    },
    {
      "fullUrl": "urn:uuid:41b01de6-745c-4d0c-baa6-185e3f307891",
      "resource": {
        "resourceType": "Location",
        "name": "Puskemas Ibu Anak",
        "type": [
          {
            "coding": [
              {
                "system": "http://terminology.kemkes.go.id/CodeSystem/location-type",
                "code": "LT000001",
                "display": "Lokasi Tempat Bersalin"
              }
            ]
          }
        ],
        "address": {
          "use": "work",
          "city": "Jakarta",
          "postalCode": "12950",
          "country": "ID",
          "extension": [
            {
              "url": "https://fhir.kemkes.go.id/r4/StructureDefinition/administrativeCode",
              "extension": [
                {
                  "url": "province",
                  "valueCode": "10"
                },
                {
                  "url": "city",
                  "valueCode": "1010"
                },
                {
                  "url": "district",
                  "valueCode": "1010101"
                },
                {
                  "url": "village",
                  "valueCode": "1010101101"
                },
                {
                  "url": "rt",
                  "valueCode": "1"
                },
                {
                  "url": "rw",
                  "valueCode": "30"
                }
              ]
            }
          ]
        }
      },
      "request": {
        "method": "POST",
        "url": "Location"
      }
    },
    {
      "fullUrl": "urn:uuid:8e9abd33-7bc8-4071-a48b-135bb20fd07b",
      "resource": {
        "resourceType": "Observation",
        "identifier": [
          {
            "system": "http://sys-ids.kemkes.go.id/observation/1000004",
            "value": "O111111"
          }
        ],
        "status": "final",
        "category": [
          {
            "coding": [
              {
                "system": "http://terminology.hl7.org/CodeSystem/observation-category",
                "code": "survey",
                "display": "Survey"
              }
            ]
          }
        ],
        "code": {
          "coding": [
            {
              "system": "http://loinc.org",
              "code": "57722-1",
              "display": "Birth plurality of Pregnancy"
            }
          ]
        },
        "subject": {
          "reference": "Patient/P02280547535",
          "display": "Patient - Mother (Teresa Lee)"
        },
        "encounter": {
          "reference": "Encounter/45e436ea-d6c7-4059-8cbe-e00fb2c665d8"
        },
        "effectiveDateTime": "2023-01-01T15:30:30+07:00",
        "issued": "2023-01-01T15:30:30+07:00",
        "performer": [
          {
            "reference": "Practitioner/N10000001",
            "display": "Dokter Bronsig"
          }
        ],
        "valueCodeableConcept": {
          "coding": [
            {
              "system": "http://snomed.info/sct",
              "code": "237244005",
              "display": "Single pregnancy"
            }
          ]
        }
      },
      "request": {
        "method": "POST",
        "url": "Observation"
      }
    },
    {
      "fullUrl": "urn:uuid:45e436ea-d6c7-4059-8cbe-e00fb2c665d8",
      "resource": {
        "resourceType": "Encounter",
        "id": "45e436ea-d6c7-4059-8cbe-e00fb2c665d8",
        "identifier": [
          {
            "system": "http://sys-ids.kemkes.go.id/encounter/10000004",
            "value": "MPDN-MATERNAL-23_3578_0053"
          },
          {
            "use": "temp",
            "system": "http://sys-ids.kemkes.go.id/mpdn/10000004",
            "value": "MPDN-MATERNAL-23_3578_0053"
          }
        ],
        "status": "finished",
        "class": {
          "system": "http://terminology.hl7.org/CodeSystem/v3-ActCode",
          "code": "AMB",
          "display": "ambulatory"
        },
        "subject": {
          "display": "Patient - Mother (Teresa Lee)",
          "reference": "Patient/P02280547535"
        },
        "participant": [
          {
            "type": [
              {
                "coding": [
                  {
                    "system": "http://terminology.hl7.org/CodeSystem/v3-ParticipationType",
                    "code": "ATND",
                    "display": "attender"
                  }
                ]
              }
            ],
            "individual": {
              "reference": "Practitioner/N10000001",
              "display": "Dokter Bronsig"
            }
          }
        ],
        "period": {
          "start": "2022-12-30T07:00:30+07:00",
          "end": "2022-12-30T15:30:30+07:00"
        },
        "location": [
          {
            "location": {
              "display": "General Ward, Ruang 1 No 3",
              "reference": "Location/ef011065-38c9-46f8-9c35-d1fe68966a3e"
            }
          }
        ],
        "statusHistory": [
          {
            "status": "arrived",
            "period": {
              "start": "2022-12-30T07:00:30+07:00",
              "end": "2022-12-30T07:15:30+07:00"
            }
          },
          {
            "period": {
              "start": "2022-12-30T07:15:30+07:00",
              "end": "2022-12-30T15:30:30+07:00"
            },
            "status": "in-progress"
          },
          {
            "period": {
              "start": "2022-12-30T15:30:30+07:00",
              "end": "2022-12-30T15:30:30+07:00"
            },
            "status": "finished"
          }
        ],
        "serviceProvider": {
          "reference": "Organization/10000004"
        }
      },
      "request": {
        "method": "PUT",
        "url": "Encounter/45e436ea-d6c7-4059-8cbe-e00fb2c665d8"
      }
    }
  ]
}