{
  "resourceType": "Bundle",
  "id": "usecase-tb-kunjungan-bulanan",
  "type": "transaction",
  "entry": [
    {
      "fullUrl": "urn:uuid:$GENERATED_UUID_ENCOUNTER",
      "resource": {
        "resourceType": "Encounter",
        "identifier": [
          {
            "use": "official",
            "system": "http://sys-ids.kemkes.go.id/encounter/$ID_ENCOUNTER_1",
            "value": "$ID_ENCOUNTER_2"
          }
        ],
        "status": "finished",
        "class": {
          "system": "http://terminology.hl7.org/CodeSystem/v3-ActCode",
          "code": "AMB",
          "display": "ambulatory"
        },
        "priority": {
          "coding": [
            {
              "system": "http://terminology.hl7.org/ValueSet/v3-ActPriority",
              "code": "R",
              "display": "routine"
            }
          ]
        },
        "subject": {
          "reference": "Patient/$IHS_NUMBER_PASIEN",
          "display": "$NAMA_PASIEN"
        },
        "serviceProvider": {
          "reference": "Organization/$IHS_NUMBER_FASYANKES"
        }
      },
      "request": {
        "method": "POST",
        "url": "Encounter"
      }
    },
    {
      "fullUrl": "urn:uuid:$GENERATED_UUID_SERVICE_REQUEST_1",
      "resource": {
        "resourceType": "ServiceRequest",
        "identifier": [
          {
            "system": "lab-x-service-request-number",
            "value": "$GENERATED_UUID_SERVICE_REQUEST_NUMBER_1",
            "assigner": {
              "reference": "Organization/$IHS_NUMBER_FASYANKES"
            }
          }
        ],
        "status": "completed",
        "intent": "directive",
        "priority": "routine",
        "code": {
          "coding": [
            {
              "system": "http://loinc.org",
              "code": "647-8"
            }
          ],
          "text": "Microscopic observation [Identifier] in Sputum by Acid fast stain.Ziehl-Neelsen"
        },
        "subject": {
          "reference": "Patient/$IHS_NUMBER_PASIEN"
        },
        "encounter": {
          "reference": "Encounter/$ID_ENCOUNTER_1"
        },
        "occurrenceDateTime": "2022-02-01T08:00:00+07:00",
        "requester": {
          "reference": "Organization/$IHS_NUMBER_FASYANKES"
        },
        "performer": [
          {
            "reference": "Organization/$IHS_NUMBER_FASYANKES"
          }
        ]
      },
      "request": {
        "method": "POST",
        "url": "ServiceRequest"
      }
    },
    {
      "fullUrl": "urn:uuid:$GENERATED_UUID_OBSERVATION_1",
      "resource": {
        "resourceType": "Observation",
        "code": {
          "coding": [
            {
              "system": "http://loinc.org",
              "code": "647-8"
            }
          ],
          "text": "Microscopic observation [Identifier] in Sputum by Acid fast stain.Ziehl-Neelsen"
        },
        "encounter": {
          "reference": "Encounter/$GENERATED_UUID_ENCOUNTER"
        },
        "dataAbsentReason": {
          "coding": [
            {
              "system": "http://terminology.hl7.org/CodeSystem/data-absent-reason",
              "code": "not-performed"
            }
          ]
        }
      },
      "request": {
        "method": "POST",
        "url": "Observation"
      }
    },
    {
      "fullUrl": "urn:uuid:$GENERATED_UUID_DIAGNOSTIC_REPORT",
      "resource": {
        "resourceType": "DiagnosticReport",
        "id": "$GENERATED_UUID_DIAGNOSTIC_REPORT",
        "status": "final",
        "code": {
          "coding": [
            {
              "system": "http://loinc.org",
              "code": "????"
            }
          ],
          "text": "????"
        },
        "subject": {
          "reference": "Patient/$IHS_NUMBER_PASIEN"
        },
        "encounter": {
          "reference": "Encounter/$GENERATED_UUID_ENCOUNTER"
        },
        "effectiveDateTime": "2022-07-07",
        "issued": "2022-07-07T00:00:00+07:00",
        "performer": [
          {
            "reference": "Organization/$IHS_NUMBER_FASYANKES",
            "display": "$NAMA_FASYANKES"
          }
        ],
        "result": [
          {
            "reference": "Observation/$GENERATED_UUID_OBSERVATION_1"
          }
        ]
      },
      "request": {
        "method": "POST",
        "url": "DiagnosticReport"
      }
    }
  ]
}