<Bundle xmlns="http://hl7.org/fhir">
  <id value="usecase-tb-case-finding" />
  <type value="transaction" />
  <entry>
    <fullUrl value="urn:uuid:$GENERATED_UUID_ENCOUNTER" />
    <resource>
      <Encounter>
        <identifier>
          <use value="official" />
          <system value="http://sys-ids.kemkes.go.id/encounter/$ID_ENCOUNTER_1" />
          <value value="$ID_ENCOUNTER_2" />
        </identifier>
        <status value="finished" />
        <class>
          <system value="http://terminology.hl7.org/CodeSystem/v3-ActCode" />
          <code value="AMB" />
          <display value="ambulatory" />
        </class>
        <priority>
          <coding>
            <system value="http://terminology.hl7.org/ValueSet/v3-ActPriority" />
            <code value="R" />
            <display value="routine" />
          </coding>
        </priority>
        <subject>
          <reference value="Patient/$IHS_NUMBER_PASIEN" />
          <display value="$NAMA_PASIEN" />
        </subject>
        <participant>
          <type>
            <coding>
              <system value="http://terminology.hl7.org/CodeSystem/v3-ParticipationType" />
              <code value="ATND" />
            </coding>
          </type>
          <individual>
            <reference value="Practitioner/$IHS_NUMBER_DOKTER" />
          </individual>
        </participant>
        <serviceProvider>
          <reference value="Organization/$IHS_NUMBER_FASYANKES" />
        </serviceProvider>
      </Encounter>
    </resource>
    <request>
      <method value="POST" />
      <url value="Encounter" />
    </request>
  </entry>
  <entry>
    <fullUrl value="urn:uuid:$GENERATED_UUID_MEDIA" />
    <resource>
      <Media>
        <id value="$GENERATED_UUID_MEDIA" />
        <status value="completed" />
        <type>
          <coding>
            <system value="http://terminology.hl7.org/CodeSystem/media-type" />
            <code value="image" />
            <display value="Image" />
          </coding>
        </type>
        <modality>
          <coding>
            <system value="http://terminology.hl7.org/CodeSystem/media-modality" />
            <code value="diagram" />
          </coding>
        </modality>
        <subject>
          <reference value="Patient/$IHS_NUMBER_PASIEN" />
        </subject>
        <createdDateTime value="2022-07-07" />
        <issued value="2022-07-07T00:00:00Z" />
        <operator>
          <reference value="Practitioner/$IHS_NUMBER_DOKTER" />
        </operator>
        <height value="480" />
        <width value="640" />
        <frames value="1" />
        <content>
          <contentType value="image/$IMAGE_TYPE" />
          <data value="$IMAGE_BASE64_DATA" />
          <creation value="$IMAGE_CREATION" />
        </content>
      </Media>
    </resource>
    <request>
      <method value="POST" />
      <url value="Media" />
    </request>
  </entry>
  <entry>
    <fullUrl value="urn:uuid:$GENERATED_UUID_OBSERVATION_1" />
    <resource>
      <Observation>
        <status value="registered" />
        <code>
          <coding>
            <system value="http://loinc.org" />
            <code value="647-8" />
          </coding>
          <text value="Microscopic observation [Identifier] in Sputum by Acid fast stain.Ziehl-Neelsen" />
        </code>
        <encounter>
          <reference value="Encounter/$GENERATED_UUID_ENCOUNTER" />
        </encounter>
        <dataAbsentReason>
          <coding>
            <system value="http://terminology.hl7.org/CodeSystem/data-absent-reason" />
            <code value="not-performed" />
          </coding>
        </dataAbsentReason>
      </Observation>
    </resource>
    <request>
      <method value="POST" />
      <url value="Observation" />
    </request>
  </entry>
  <entry>
    <fullUrl value="urn:uuid:$GENERATED_UUID_OBSERVATION_2" />
    <resource>
      <Observation>
        <status value="registered" />
        <code>
          <coding>
            <system value="http://loinc.org" />
            <code value="89371-9" />
          </coding>
          <text value="MTB complex DNA and rpoB RIF resistance mutation panel [Presence]" />
        </code>
        <encounter>
          <reference value="Encounter/$GENERATED_UUID_ENCOUNTER" />
        </encounter>
        <dataAbsentReason>
          <coding>
            <system value="http://terminology.hl7.org/CodeSystem/data-absent-reason" />
            <code value="not-performed" />
          </coding>
        </dataAbsentReason>
      </Observation>
    </resource>
    <request>
      <method value="POST" />
      <url value="Observation" />
    </request>
  </entry>
  <entry>
    <fullUrl value="urn:uuid:$GENERATED_UUID_OBSERVATION_3" />
    <resource>
      <Observation>
        <status value="registered" />
        <code>
          <coding>
            <system value="http://loinc.org" />
            <code value="539-7" />
          </coding>
          <text value="Mycobacterium sp identified in Sputum by Organism specific culture" />
        </code>
        <encounter>
          <reference value="Encounter/$GENERATED_UUID_ENCOUNTER" />
        </encounter>
        <dataAbsentReason>
          <coding>
            <system value="http://terminology.hl7.org/CodeSystem/data-absent-reason" />
            <code value="not-performed" />
          </coding>
        </dataAbsentReason>
      </Observation>
    </resource>
    <request>
      <method value="POST" />
      <url value="Observation" />
    </request>
  </entry>
  <entry>
    <fullUrl value="urn:uuid:$GENERATED_UUID_OBSERVATION_4" />
    <resource>
      <Observation>
        <status value="registered" />
        <code>
          <coding>
            <system value="http://loinc.org" />
            <code value="24648-8" />
          </coding>
          <text value="XR Chest PA upright" />
        </code>
        <encounter>
          <reference value="Encounter/$GENERATED_UUID_ENCOUNTER" />
        </encounter>
        <dataAbsentReason>
          <coding>
            <system value="http://terminology.hl7.org/CodeSystem/data-absent-reason" />
            <code value="not-performed" />
          </coding>
        </dataAbsentReason>
      </Observation>
    </resource>
    <request>
      <method value="POST" />
      <url value="Observation" />
    </request>
  </entry>
  <entry>
    <fullUrl value="urn:uuid:$GENERATED_UUID_DIAGNOSTIC_REPORT" />
    <resource>
      <DiagnosticReport>
        <id value="$GENERATED_UUID_DIAGNOSTIC_REPORT" />
        <status value="final" />
        <code>
          <coding>
            <system value="http://loinc.org" />
            <code value="????" />
          </coding>
          <text value="????" />
        </code>
        <subject>
          <reference value="Patient/$IHS_NUMBER_PASIEN" />
        </subject>
        <encounter>
          <reference value="Encounter/$GENERATED_UUID_ENCOUNTER" />
        </encounter>
        <effectiveDateTime value="2022-07-07" />
        <issued value="2022-07-07T00:00:00+07:00" />
        <performer>
          <reference value="Organization/$IHS_NUMBER_FASYANKES" />
          <display value="$NAMA_FASYANKES" />
        </performer>
        <result>
          <reference value="Observation/$GENERATED_UUID_OBSERVATION_1" />
        </result>
        <result>
          <reference value="Observation/$GENERATED_UUID_OBSERVATION_2" />
        </result>
        <result>
          <reference value="Observation/$GENERATED_UUID_OBSERVATION_3" />
        </result>
        <result>
          <reference value="Observation/$GENERATED_UUID_OBSERVATION_4" />
        </result>
        <conclusionCode>
          <coding>
            <system value="http://snomed.info/sct" />
            <code value="$SNOMEDCT_TB_CONCLUSION" />
            <display value="$SNOMEDCT_TB_CONCLUSION_DISPLAY" />
          </coding>
        </conclusionCode>
      </DiagnosticReport>
    </resource>
    <request>
      <method value="POST" />
      <url value="DiagnosticReport" />
    </request>
  </entry>
</Bundle>