{
  "resourceType": "Bundle",
  "id": "usecase-tb-case-finding",
  "type": "transaction",
  "entry": [
    {
      "fullUrl": "urn:uuid:$GENERATED_UUID_ENCOUNTER",
      "resource": {
        "resourceType": "Encounter",
        "identifier": [
          {
            "use": "official",
            "system": "http://sys-ids.kemkes.go.id/encounter/$ID_ENCOUNTER_1",
            "value": "$ID_ENCOUNTER_2"
          }
        ],
        "status": "finished",
        "class": {
          "system": "http://terminology.hl7.org/CodeSystem/v3-ActCode",
          "code": "AMB",
          "display": "ambulatory"
        },
        "priority": {
          "coding": [
            {
              "system": "http://terminology.hl7.org/ValueSet/v3-ActPriority",
              "code": "R",
              "display": "routine"
            }
          ]
        },
        "subject": {
          "reference": "Patient/$IHS_NUMBER_PASIEN",
          "display": "$NAMA_PASIEN"
        },
        "participant": [
          {
            "type": [
              {
                "coding": [
                  {
                    "system": "http://terminology.hl7.org/CodeSystem/v3-ParticipationType",
                    "code": "ATND"
                  }
                ]
              }
            ],
            "individual": {
              "reference": "Practitioner/$IHS_NUMBER_DOKTER"
            }
          }
        ],
        "serviceProvider": {
          "reference": "Organization/$IHS_NUMBER_FASYANKES"
        }
      },
      "request": {
        "method": "POST",
        "url": "Encounter"
      }
    },
    {
      "fullUrl": "urn:uuid:$GENERATED_UUID_MEDIA",
      "resource": {
        "resourceType": "Media",
        "id": "$GENERATED_UUID_MEDIA",
        "status": "completed",
        "type": {
          "coding": [
            {
              "system": "http://terminology.hl7.org/CodeSystem/media-type",
              "code": "image",
              "display": "Image"
            }
          ]
        },
        "modality": {
          "coding": [
            {
              "system": "http://terminology.hl7.org/CodeSystem/media-modality",
              "code": "diagram"
            }
          ]
        },
        "subject": {
          "reference": "Patient/$IHS_NUMBER_PASIEN"
        },
        "createdDateTime": "2022-07-07",
        "issued": "2022-07-07T00:00:00Z",
        "operator": {
          "reference": "Practitioner/$IHS_NUMBER_DOKTER"
        },
        "height": 480,
        "width": 640,
        "frames": 1,
        "content": {
          "contentType": "image/$IMAGE_TYPE",
          "data": "$IMAGE_BASE64_DATA",
          "creation": "$IMAGE_CREATION"
        }
      },
      "request": {
        "method": "POST",
        "url": "Media"
      }
    },
    {
      "fullUrl": "urn:uuid:$GENERATED_UUID_OBSERVATION_1",
      "resource": {
        "resourceType": "Observation",
        "status": "registered",
        "code": {
          "coding": [
            {
              "system": "http://loinc.org",
              "code": "647-8"
            }
          ],
          "text": "Microscopic observation [Identifier] in Sputum by Acid fast stain.Ziehl-Neelsen"
        },
        "category": {
          "coding": [
            {
              "system": "http://terminology.hl7.org/CodeSystem/observation-category",
              "code": "laboratory"
            }
          ],
          "text": "Laboratory"
        },
        "encounter": {
          "reference": "Encounter/$GENERATED_UUID_ENCOUNTER"
        },
        "value": {
          "coding": [
            {
              "system": "$CODE_OBSERVATION_1",
              "code": "$VALUE_OBSERVATION_1"
            }
          ]
        },
        "dataAbsentReason": {
          "coding": [
            {
              "system": "http://terminology.hl7.org/CodeSystem/data-absent-reason",
              "code": "not-performed"
            }
          ]
        }
      },
      "request": {
        "method": "POST",
        "url": "Observation"
      }
    },
    {
      "fullUrl": "urn:uuid:$GENERATED_UUID_OBSERVATION_2",
      "resource": {
        "resourceType": "Observation",
        "status": "registered",
        "code": {
          "coding": [
            {
              "system": "http://loinc.org",
              "code": "89371-9"
            }
          ],
          "text": "MTB complex DNA and rpoB RIF resistance mutation panel [Presence]"
        },
        "category": {
          "coding": [
            {
              "system": "http://terminology.hl7.org/CodeSystem/observation-category",
              "code": "laboratory"
            }
          ],
          "text": "Laboratory"
        },
        "encounter": {
          "reference": "Encounter/$GENERATED_UUID_ENCOUNTER"
        },
        "value": {
          "coding": [
            {
              "system": "$CODE_OBSERVATION_2",
              "code": "$VALUE_OBSERVATION_2"
            }
          ]
        },
        "dataAbsentReason": {
          "coding": [
            {
              "system": "http://terminology.hl7.org/CodeSystem/data-absent-reason",
              "code": "not-performed"
            }
          ]
        }
      },
      "request": {
        "method": "POST",
        "url": "Observation"
      }
    },
    {
      "fullUrl": "urn:uuid:$GENERATED_UUID_OBSERVATION_3",
      "resource": {
        "resourceType": "Observation",
        "status": "registered",
        "code": {
          "coding": [
            {
              "system": "http://loinc.org",
              "code": "539-7"
            }
          ],
          "text": "Mycobacterium sp identified in Sputum by Organism specific culture"
        },
        "category": {
          "coding": [
            {
              "system": "http://terminology.hl7.org/CodeSystem/observation-category",
              "code": "laboratory"
            }
          ],
          "text": "Laboratory"
        },
        "encounter": {
          "reference": "Encounter/$GENERATED_UUID_ENCOUNTER"
        },
        "value": {
          "coding": [
            {
              "system": "$CODE_OBSERVATION_3",
              "code": "$VALUE_OBSERVATION_3"
            }
          ]
        },
        "dataAbsentReason": {
          "coding": [
            {
              "system": "http://terminology.hl7.org/CodeSystem/data-absent-reason",
              "code": "not-performed"
            }
          ]
        }
      },
      "request": {
        "method": "POST",
        "url": "Observation"
      }
    },
    {
      "fullUrl": "urn:uuid:$GENERATED_UUID_OBSERVATION_4",
      "resource": {
        "resourceType": "Observation",
        "status": "registered",
        "code": {
          "coding": [
            {
              "system": "http://loinc.org",
              "code": "24648-8"
            }
          ],
          "text": "XR Chest PA upright"
        },
        "category": {
          "coding": [
            {
              "system": "http://terminology.hl7.org/CodeSystem/observation-category",
              "code": "imaging"
            }
          ],
          "text": "Imaging"
        },
        "encounter": {
          "reference": "Encounter/$GENERATED_UUID_ENCOUNTER"
        },
        "value": {
          "coding": [
            {
              "system": "$CODE_OBSERVATION_4",
              "code": "$VALUE_OBSERVATION_4"
            }
          ]
        },
        "dataAbsentReason": {
          "coding": [
            {
              "system": "http://terminology.hl7.org/CodeSystem/data-absent-reason",
              "code": "not-performed"
            }
          ]
        }
      },
      "request": {
        "method": "POST",
        "url": "Observation"
      }
    },
    {
      "fullUrl": "urn:uuid:$GENERATED_UUID_DIAGNOSTIC_REPORT",
      "resource": {
        "resourceType": "DiagnosticReport",
        "id": "$GENERATED_UUID_DIAGNOSTIC_REPORT",
        "status": "final",
        "code": {
          "coding": [
            {
              "system": "http://loinc.org",
              "code": "????"
            }
          ],
          "text": "????"
        },
        "subject": {
          "reference": "Patient/$IHS_NUMBER_PASIEN"
        },
        "effectiveDateTime": "2022-07-07",
        "issued": "2022-07-07T00:00:00+07:00",
        "performer": [
          {
            "reference": "Organization/$IHS_NUMBER_FASYANKES",
            "display": "$NAMA_FASYANKES"
          }
        ],
        "encounter": {
          "reference": "Encounter/$GENERATED_UUID_ENCOUNTER"
        },
        "result": [
          {
            "reference": "Observation/$GENERATED_UUID_OBSERVATION_1"
          },
          {
            "reference": "Observation/$GENERATED_UUID_OBSERVATION_2"
          },
          {
            "reference": "Observation/$GENERATED_UUID_OBSERVATION_3"
          },
          {
            "reference": "Observation/$GENERATED_UUID_OBSERVATION_4"
          }
        ],
        "conclusionCode": [
          {
            "coding": [
              {
                "system": "http://snomed.info/sct",
                "code": "$SNOMEDCT_TB_CONCLUSION",
                "display": "$SNOMEDCT_TB_CONCLUSION_DISPLAY"
              }
            ]
          }
        ]
      },
      "request": {
        "method": "POST",
        "url": "DiagnosticReport"
      }
    }
  ]
}